Accel_X,Accel_Y,Accel_Z,Gyro_X,Gyro_Y,Gyro_Z
0.037964,0.735107,0.665039,9.704590,-2.380371,0.915527
0.103882,0.815430,0.781006,-6.286621,3.479004,-9.460449
0.186523,0.575806,0.671021,8.178711,-9.460449,-2.258301
0.183594,0.780029,0.704590,-3.540039,5.493164,4.882812
0.164673,0.659912,0.677612,-34.362793,3.601074,3.234863
0.166504,0.740967,0.639038,-25.085447,2.746582,-4.394531
0.191406,0.773926,0.555176,-14.465331,-1.647949,-5.371093
0.188843,0.762573,0.573120,-6.530761,0.915527,-2.075195
0.185059,0.791626,0.559937,-2.868652,2.624511,-1.892090
0.180176,0.775269,0.574707,-2.258301,0.061035,-3.295898
0.198730,0.799194,0.583008,4.882812,0.610352,-2.502441
0.183350,0.809204,0.579346,-4.516602,2.441406,0.122070
0.208740,0.799438,0.579712,1.037598,2.380371,-5.249023
0.203979,0.786621,0.549683,3.723144,-0.793457,-0.183105
0.187378,0.712402,0.529663,13.488769,0.854492,-3.051758
0.191040,0.670654,0.486694,15.441894,0.183105,-0.183105
0.163574,0.660767,0.543457,16.662598,-1.220703,4.699707
0.153931,0.589966,0.585327,27.893064,-7.751464,2.197266
0.157593,0.640991,0.657837,28.137205,-12.390136,1.647949
0.157349,0.687012,0.750977,10.375976,1.892090,4.943848
0.163818,0.667114,0.774536,17.395020,-6.042480,4.516602
0.146240,0.630615,0.738892,16.113281,-8.850098,4.028320
0.121460,0.616943,0.804321,2.014160,-6.225585,7.446289
0.089111,0.591919,0.798218,8.239746,-4.028320,3.601074
0.060547,0.553833,0.895264,8.850098,-6.164550,2.014160
0.044312,0.586914,0.832886,-9.765625,-1.037598,-2.502441
0.080200,0.591553,0.827515,-9.460449,-0.488281,-3.479004
0.106445,0.628418,0.854248,4.882812,-4.638672,-5.981445
0.105835,0.684082,0.905518,-1.953125,-2.990722,-4.821777
0.108276,0.710083,0.933838,-1.098633,1.220703,-1.770019
0.105225,0.689697,0.901855,0.488281,-0.061035,-4.272461
0.113037,0.729980,0.971313,3.112793,-0.183105,-0.183105
0.108032,0.604614,0.859741,-0.671387,1.892090,-2.441406
0.073853,0.598633,0.835327,-8.605957,0.610352,-0.610352
0.066284,0.586670,0.816772,-13.549804,4.577637,-3.967285
0.125366,0.643555,0.817261,-13.061522,9.582520,-0.244141
0.121704,0.641968,0.753052,-5.737304,2.380371,-1.281738
0.084961,0.621948,0.697266,-14.160155,2.502441,-1.281738
0.100464,0.662720,0.678711,-11.840819,4.211426,-5.493164
0.121094,0.608643,0.626099,-11.596679,5.310058,-0.366211
0.148560,0.532349,0.544189,-4.699707,2.441406,-1.159668
0.116821,0.489868,0.538330,-1.464844,2.868652,7.873535
0.139038,0.776978,0.727417,6.347656,7.141113,0.854492
0.149414,0.687012,0.702393,3.479004,-1.953125,2.319336
0.149658,0.658325,0.676514,-10.437011,8.728027,2.075195
0.188843,0.695679,0.699463,-14.770507,1.708984,-1.159668
0.162231,0.697388,0.682983,8.728027,-1.403808,-0.488281
0.159424,0.683594,0.676392,0.549316,0.549316,1.159668
0.151611,0.682129,0.684814,-3.540039,0.976562,0.122070
0.150879,0.674316,0.657349,-4.394531,0.976562,0.061035
0.154419,0.679321,0.625122,-2.990722,1.098633,0.244141
0.152466,0.646362,0.593994,4.760742,-0.915527,1.220703
0.127686,0.544434,0.540039,11.718749,-3.601074,2.441406
0.129639,0.588135,0.594727,11.901855,-4.089355,0.793457
0.149658,0.616333,0.678711,12.451171,-3.906250,-2.136230
0.138794,0.666992,0.720093,6.164550,-1.831055,1.403808
0.150513,0.694092,0.765381,5.126953,-3.540039,-1.586914
0.143555,0.725586,0.800537,1.220703,-0.305176,-0.305176
0.157349,0.651001,0.803223,19.348145,-8.544922,-5.310058
0.143066,0.608154,0.785156,11.535644,-4.638672,-3.417969
0.111084,0.551025,0.789307,15.686034,-1.525879,-4.516602
0.104370,0.527710,0.821655,7.812500,-3.112793,0.549316
0.118042,0.577881,0.876099,-6.896972,2.502441,-2.685547
0.156006,0.684204,0.935181,-7.507324,2.258301,-0.854492
0.211182,0.806763,1.074829,15.747069,-0.549316,-1.647949
0.202026,0.727173,1.147949,-3.845215,3.540039,1.831055
0.173828,0.547363,0.907959,7.568359,-2.380371,1.159668
0.130127,0.521240,0.810303,-0.915527,-0.427246,-0.732422
0.096191,0.552368,0.830811,-5.798339,-0.122070,-2.807617
0.125854,0.569946,0.859619,-4.943848,-0.183105,-4.394531
0.148071,0.604248,0.812256,-5.981445,1.525879,-3.051758
0.132446,0.611328,0.799438,-18.371582,2.258301,1.708984
0.109375,0.599976,0.753418,-14.038085,2.746582,0.122070
0.135254,0.561401,0.713623,-15.014647,5.615234,-0.244141
0.145508,0.527466,0.633423,-14.282226,3.845215,-0.976562
0.139160,0.485840,0.583862,-10.070800,0.000000,0.732422
0.120117,0.528198,0.579712,1.403808,1.586914,2.990722
0.142090,0.671753,0.726685,2.807617,1.831055,-2.502441
0.163940,0.632812,0.707642,-3.479004,0.732422,0.915527
0.154175,0.694946,0.708984,-4.089355,3.173828,-2.868652
0.166992,0.646240,0.715332,-3.967285,0.732422,-2.197266
0.153564,0.663818,0.713745,1.220703,0.061035,-3.417969
0.151001,0.664551,0.716064,-4.272461,2.807617,-2.197266
0.159058,0.659302,0.703491,-0.366211,-0.366211,-0.610352
0.166992,0.647949,0.666016,3.967285,-0.427246,-1.464844
0.152100,0.581543,0.569214,-0.366211,0.610352,0.793457
0.158936,0.577515,0.633667,6.835937,-1.586914,0.976562
0.131226,0.480957,0.587280,17.395020,-11.840819,2.563476
0.128052,0.610474,0.652222,6.958007,-2.685547,-0.122070
0.156372,0.662598,0.750366,2.624511,-2.868652,-0.244141
0.154907,0.613647,0.796265,8.544922,-4.516602,-1.037598
0.143433,0.630615,0.837158,5.004883,-0.854492,2.258301
0.124878,0.563599,0.828369,4.760742,-0.488281,-1.281738
0.135742,0.598511,0.833862,-6.225585,2.075195,0.305176
0.119873,0.620605,0.855957,2.929687,-2.014160,0.061035
0.115601,0.656982,0.856934,-0.976562,1.586914,-3.234863
0.159058,0.682251,0.941162,11.840819,-1.342773,-5.249023
0.165405,0.762573,0.984985,-3.051758,4.028320,-3.356933
0.225830,0.828491,1.071167,-2.258301,7.568359,-3.051758
0.176758,0.596924,0.982544,21.484373,-4.272461,3.356933
0.119141,0.507080,0.792725,4.028320,1.098633,0.427246
0.105103,0.504150,0.746826,-2.502441,-2.075195,-0.366211
0.127319,0.561646,0.805054,-15.930175,5.615234,-3.356933
0.206665,0.616821,0.891113,-19.409180,4.943848,-1.770019
0.195557,0.649292,0.838379,-9.338379,2.990722,1.342773
0.143799,0.596069,0.771362,-9.521484,1.831055,2.746582
0.103271,0.542725,0.645264,-1.220703,-2.868652,-0.915527
0.111206,0.456665,0.650879,-0.183105,-0.061035,2.075195
0.113525,0.486328,0.582764,-5.249023,1.464844,0.305176
0.123047,0.570923,0.686523,-20.385740,6.530761,5.004883
0.147583,0.649292,0.729492,-8.178711,0.610352,-0.732422
0.181763,0.654419,0.696045,-10.559081,-0.122070,-0.061035
0.166382,0.636475,0.695435,-10.070800,0.305176,0.976562
0.148682,0.719971,0.685425,-9.704590,2.258301,-0.610352
0.145752,0.666748,0.693481,5.493164,-3.784179,-2.197266
0.141846,0.693359,0.699707,6.347656,-1.464844,0.000000
0.155396,0.681152,0.693970,-6.835937,4.150391,0.061035
0.147217,0.675781,0.694702,0.671387,-0.549316,-0.793457
0.154663,0.669800,0.681396,4.394531,-1.342773,-0.610352
0.143799,0.638916,0.650635,0.305176,0.732422,-0.915527
0.149170,0.621094,0.630005,0.366211,-1.586914,1.831055
0.101929,0.533936,0.572754,6.774902,-2.807617,2.380371
0.104492,0.569458,0.634888,13.244628,-1.586914,2.502441
0.121826,0.575684,0.653320,22.094725,-5.249023,0.305176
0.112305,0.599365,0.708862,4.089355,-1.403808,1.831055
0.142822,0.643311,0.766602,16.235352,-3.417969,-0.122070
0.149780,0.624146,0.840698,19.653320,-4.333496,2.929687
0.100098,0.581299,0.857056,-6.408691,1.831055,1.953125
0.122314,0.580078,0.854736,0.793457,-0.671387,-4.028320
0.136597,0.617065,0.811768,-4.882812,2.685547,-6.958007
0.150513,0.695923,0.938721,-3.967285,1.464844,-3.234863
0.131836,0.677856,0.982544,16.174316,-1.403808,-2.197266
0.156494,0.725830,0.970703,-11.718749,2.746582,-4.211426
0.206055,0.835937,1.083740,-7.995605,7.751464,-2.136230
0.187256,0.614868,0.928711,19.531250,-4.089355,-0.305176
0.117798,0.493530,0.842041,6.835937,2.014160,0.244141
0.098755,0.486450,0.771240,-0.610352,0.000000,-2.807617
0.133667,0.589233,0.805542,-29.113768,6.469726,-5.310058
0.211060,0.615112,0.842651,-18.554687,6.469726,-5.493164
0.193359,0.645508,0.776611,-14.038085,2.319336,-2.563476
0.171631,0.653442,0.711426,-18.798828,5.126953,-7.934570
0.166870,0.596191,0.673462,-5.676269,-0.976562,-5.065917
0.161865,0.504883,0.581055,-6.347656,0.122070,-3.234863
0.173828,0.521973,0.543091,-21.484373,1.770019,0.671387
0.170898,0.623169,0.585693,-10.498046,2.868652,2.319336
0.211792,0.771606,0.663818,-4.272461,3.967285,-1.098633
0.226562,0.676758,0.659302,-0.122070,-0.915527,5.004883
0.217285,0.708252,0.629761,-10.559081,1.464844,5.615234
0.187134,0.718628,0.652710,-3.051758,2.685547,5.737304
0.177856,0.706543,0.642700,5.187988,-1.220703,3.967285
0.170044,0.680542,0.627930,7.507324,-3.417969,4.272461
0.160400,0.678345,0.628296,0.000000,1.098633,3.601074
0.159546,0.633911,0.612793,2.624511,-2.319336,2.624511
0.129761,0.629395,0.593140,4.394531,-3.356933,4.150391
0.112793,0.626953,0.625854,2.807617,-3.417969,2.807617
0.123901,0.638550,0.626587,10.681151,-3.723144,2.685547
0.106201,0.659912,0.604370,7.568359,-1.953125,2.380371
0.118774,0.636353,0.722534,18.432617,-3.662109,2.563476
0.123291,0.658936,0.745239,16.784668,-3.295898,0.915527
0.116455,0.636353,0.775269,0.427246,-1.159668,1.953125
0.115479,0.683838,0.759155,5.737304,-2.441406,0.122070
0.101807,0.685547,0.866821,21.179197,-5.554199,0.610352
0.089844,0.700562,0.916504,22.155760,-5.371093,-0.854492
0.084717,0.614014,0.979980,8.422852,-1.708984,2.258301
0.099609,0.694336,0.993286,-10.498046,-0.610352,-4.150391
0.112915,0.720337,1.041992,-1.708984,-1.708984,-3.601074
0.082397,0.627808,0.913574,0.000000,-1.281738,-3.967285
0.099854,0.593018,0.894531,-9.399414,5.004883,-4.394531
0.103394,0.612427,0.866699,-4.943848,3.112793,-4.150391
0.117188,0.628418,0.834473,-4.760742,3.295898,-5.920410
0.084473,0.625122,0.800415,5.615234,-1.342773,-4.638672
0.075684,0.581177,0.792969,-6.164550,3.662109,-4.028320
0.116821,0.514526,0.735840,-16.357422,5.371093,-5.737304
0.132812,0.466553,0.641846,-3.540039,0.976562,-1.098633
0.101196,0.409546,0.516113,-2.441406,0.122070,-1.220703
0.131226,0.582886,0.663940,-11.474608,8.239746,-3.540039
0.165649,0.649780,0.709839,-7.446289,5.004883,0.122070
0.155151,0.668823,0.694946,-10.131835,3.723144,-2.014160
0.170898,0.611816,0.721680,-2.014160,0.671387,-0.915527
0.181763,0.699707,0.731689,3.479004,2.258301,-1.708984
0.184570,0.659302,0.705200,-2.807617,1.220703,0.122070
0.174438,0.678833,0.725830,-5.920410,2.502441,2.197266
0.182373,0.659546,0.715820,-1.831055,3.601074,-0.244141
0.168335,0.630005,0.695923,-3.723144,0.122070,3.479004
0.156860,0.658447,0.698120,0.976562,-0.854492,2.075195
0.161377,0.646362,0.651245,-3.845215,-1.037598,2.075195
0.158447,0.590698,0.637329,9.338379,0.488281,3.479004
0.148315,0.538818,0.627808,12.878417,-2.075195,6.225585
0.125977,0.530151,0.665894,9.887695,-2.685547,3.845215
0.132812,0.568604,0.743164,8.483887,-3.845215,3.662109
0.133423,0.613159,0.767212,12.512206,-3.967285,3.845215
0.126099,0.559692,0.767578,14.587401,-5.249023,2.624511
0.104370,0.611572,0.798096,1.770019,-1.708984,1.220703
0.113647,0.587769,0.798706,-0.244141,-5.554199,-1.159668
0.121948,0.649292,0.841553,1.342773,-2.441406,0.732422
0.103149,0.648560,0.883301,7.873535,-1.220703,-2.441406
0.106812,0.548706,0.885742,19.531250,-3.723144,-4.516602
0.093994,0.600098,0.905396,0.305176,0.488281,-4.089355
0.130859,0.700317,1.090332,4.455566,4.272461,-3.112793
0.156738,0.647583,1.081055,11.657714,-0.671387,-3.112793
0.116211,0.567749,0.923584,-11.535644,-0.732422,-5.432128
0.149658,0.530640,0.862305,-9.460449,3.234863,-7.080078
0.172363,0.532715,0.879272,-3.173828,2.441406,-1.403808
0.144287,0.563599,0.891602,0.549316,3.967285,1.342773
0.155518,0.557007,0.914307,12.634276,2.136230,-0.366211
0.165894,0.509766,0.832642,-3.967285,4.211426,-2.258301
0.156860,0.440674,0.800171,-11.352538,3.356933,2.441406
0.140137,0.434570,0.739868,-18.981934,7.812500,-1.708984
0.169556,0.463623,0.702881,-17.944336,6.713867,-1.708984
0.167114,0.513794,0.652222,-11.230468,3.173828,-1.770019
0.175415,0.559448,0.667725,-14.160155,4.699707,1.037598
0.177979,0.599121,0.711548,-9.155273,3.356933,3.112793
0.162109,0.643433,0.731812,-7.690429,4.211426,4.333496
0.158447,0.659180,0.700073,-15.136718,4.882812,2.990722
0.177002,0.674805,0.714355,-10.864257,2.014160,2.014160
0.191650,0.665405,0.695557,-6.835937,-1.281738,3.601074
0.156006,0.690186,0.679321,1.037598,-2.014160,2.136230
0.159912,0.680420,0.698486,-5.859375,0.793457,1.464844
0.169678,0.683228,0.694946,-6.530761,-1.037598,0.793457
0.166748,0.687622,0.684814,-2.075195,-0.854492,0.122070
0.175903,0.691650,0.679199,-2.929687,-0.061035,-1.281738
0.170166,0.714233,0.690674,-6.286621,-0.671387,0.488281
0.170410,0.675171,0.686035,-5.859375,-1.831055,-0.549316
0.159424,0.713989,0.662598,-3.479004,-1.037598,-2.502441
0.171631,0.714966,0.672363,-4.577637,-0.427246,-0.488281
0.170776,0.701050,0.670654,-2.685547,-0.061035,-0.854492
0.169922,0.727783,0.659912,-10.192870,-1.220703,-2.441406
0.164062,0.707520,0.660889,-3.601074,-0.671387,-3.112793
0.175781,0.762085,0.634033,-3.662109,-0.122070,-2.746582
0.181396,0.729248,0.651489,-4.089355,0.122070,0.488281
0.180664,0.749878,0.636963,-0.671387,0.000000,-0.305176
0.191528,0.753906,0.649536,-3.234863,2.563476,-0.366211
0.171509,0.689819,0.619751,-0.793457,-2.136230,1.281738
0.178711,0.793213,0.680420,0.488281,2.502441,2.990722
0.161987,0.736450,0.604614,4.882812,-2.136230,0.000000
0.165527,0.744385,0.654419,-7.507324,-0.305176,3.051758
0.162598,0.744141,0.644165,-1.464844,0.732422,0.976562
0.162354,0.741821,0.650513,3.479004,-1.586914,0.000000
0.170044,0.732056,0.650024,4.394531,-0.305176,0.488281
0.149780,0.719849,0.646362,-2.685547,-2.502441,2.868652
0.140503,0.731201,0.653320,-3.601074,0.000000,1.586914
0.142578,0.755615,0.634399,-4.638672,1.220703,-0.122070
0.156250,0.738647,0.635742,1.770019,-0.854492,-0.244141
0.150146,0.743896,0.635742,0.610352,1.037598,0.549316
0.153320,0.734009,0.636230,0.488281,1.159668,-0.488281
0.156006,0.721069,0.642822,-0.122070,-0.366211,-0.366211
0.152222,0.738281,0.641479,1.586914,1.953125,-0.732422
0.151367,0.744263,0.635010,-0.488281,1.281738,-0.244141
0.145874,0.732544,0.647949,2.136230,1.159668,0.366211
0.130249,0.776978,0.658691,0.366211,1.525879,0.793457
0.143799,0.726318,0.613770,5.676269,-0.366211,-2.807617
0.156006,0.726807,0.622437,4.577637,2.258301,-5.187988
0.131714,0.732300,0.675903,9.521484,-6.286621,3.540039
0.133301,0.729126,0.657959,6.835937,-2.685547,2.380371
0.194946,0.727661,0.657104,7.629394,5.737304,2.502441
0.247437,0.748047,0.674805,-6.835937,9.094238,0.427246
0.279785,0.728882,0.633911,2.136230,1.586914,-2.136230
0.251221,0.699951,0.649780,-1.159668,-7.324218,-5.187988
0.156982,0.724243,0.684814,-6.713867,-1.831055,6.225585
0.111206,0.645264,0.707520,4.089355,-3.234863,-1.281738
0.122559,0.679443,0.715454,20.202635,2.258301,1.708984
