Accel_X,Accel_Y,Accel_Z,Gyro_X,Gyro_Y,Gyro_Z
0.150024,0.596802,0.514038,3.417969,-2.685547,8.422852
0.148682,0.672607,0.536377,11.840819,-3.112793,0.915527
0.176147,0.710327,0.592651,23.498533,-8.605957,7.629394
0.114380,0.679443,0.580566,14.831542,-5.737304,11.352538
0.073730,0.637207,0.611816,9.765625,-5.737304,1.953125
0.096680,0.634155,0.670410,-4.638672,-2.929687,-0.732422
0.090210,0.663818,0.701782,4.760742,-8.666992,2.929687
0.046021,0.685913,0.780273,13.854980,-10.498046,4.821777
0.020630,0.672363,0.784302,17.761230,-9.521484,5.859375
0.023071,0.677002,0.869507,0.793457,0.244141,-0.122070
0.044678,0.727173,0.890015,1.831055,-7.629394,0.488281
0.034790,0.789795,0.922729,-5.554199,-6.774902,-1.098633
0.002686,0.923096,1.006958,-4.516602,5.249023,-0.610352
0.029053,0.875610,0.975586,-2.197266,6.347656,-5.981445
0.035400,0.717407,0.828003,-2.868652,-0.244141,-1.708984
0.045898,0.649902,0.675537,-6.958007,5.004883,-4.699707
0.053345,0.674927,0.691528,-6.713867,10.925292,-6.835937
0.090088,0.728149,0.739868,1.831055,9.704590,-3.173828
0.105957,0.720093,0.742554,-2.685547,2.197266,-1.770019
0.093506,0.720215,0.692139,-9.704590,2.807617,-5.065917
0.127197,0.685669,0.656738,-11.840819,9.277344,-4.455566
0.109863,0.523437,0.498901,-15.014647,0.793457,-5.981445
0.087036,0.389282,0.307739,-9.399414,-1.831055,0.671387
0.140991,0.652466,0.725586,25.695799,-2.807617,0.183105
0.156860,0.778320,0.768066,-30.090330,19.042969,-15.991210
0.115601,0.473389,0.420410,22.521971,-15.258788,9.826660
0.093140,0.397095,0.388062,25.390623,-17.944336,12.451171
0.112671,0.614624,0.669434,15.991210,3.295898,-1.037598
0.099854,0.630615,0.767212,-3.051758,6.286621,6.896972
0.058716,0.682129,0.812012,13.793944,-17.944336,7.507324
0.040771,0.692627,0.796509,5.371093,-8.850098,7.324218
0.026123,0.681885,0.810303,3.295898,-3.540039,5.859375
0.040527,0.698608,0.875122,5.981445,-9.094238,2.990722
0.009644,0.896606,1.067017,-6.469726,0.549316,-0.488281
0.035278,0.986694,1.161377,-3.295898,8.605957,-5.004883
0.042603,0.857056,1.056519,-4.028320,4.516602,-2.197266
0.043823,0.700195,0.793457,-9.948730,5.798339,-2.502441
0.046143,0.641602,0.746948,-6.164550,7.934570,-3.112793
0.061157,0.660156,0.724854,-6.530761,7.019042,-3.295898
0.079956,0.679565,0.754639,-10.192870,10.070800,-7.385253
0.094482,0.670044,0.678101,-10.009766,1.586914,-7.141113
0.104980,0.685059,0.646729,-18.249512,6.103515,-11.169433
0.096436,0.528076,0.482178,-20.263670,9.704590,-9.277344
0.084961,0.403320,0.329224,-1.220703,-7.629394,-1.220703
0.155762,0.716431,0.609985,36.987305,-3.173828,8.972168
0.127563,0.706299,0.586304,-23.742674,9.826660,-8.605957
0.078979,0.385376,0.290894,7.568359,-11.840819,11.169433
0.087158,0.527832,0.447388,26.916502,-11.047362,3.173828
0.122314,0.656006,0.669678,4.516602,-0.915527,2.563476
0.088623,0.659302,0.734009,12.695312,-8.972168,3.601074
0.039429,0.700684,0.816040,5.676269,-11.230468,2.807617
0.028198,0.692383,0.857178,11.657714,-12.023925,5.554199
0.022461,0.752197,0.916016,3.723144,-2.197266,3.417969
0.016235,0.910400,1.083252,1.647949,-0.793457,2.136230
0.010620,0.999878,1.164551,-1.281738,3.417969,-4.577637
0.033813,0.800659,1.010864,1.464844,0.976562,0.854492
0.042480,0.686279,0.828369,-10.864257,5.126953,-6.469726
0.071899,0.647827,0.723145,-2.624511,5.554199,-4.211426
0.090942,0.643188,0.762329,-0.610352,4.577637,-4.821777
0.097046,0.675537,0.744141,-7.995605,4.699707,-5.981445
0.104858,0.667969,0.687134,-10.925292,3.723144,-5.432128
0.105103,0.599487,0.591797,-19.287109,9.765625,-3.662109
0.072754,0.421021,0.373169,-14.587401,4.516602,0.244141
0.099609,0.387695,0.361572,13.732909,-11.779784,4.943848
0.066040,0.416504,0.432617,-2.868652,1.342773,4.943848
0.051392,0.472290,0.559692,14.587401,-9.094238,-0.305176
0.065674,0.522949,0.669434,23.437498,-10.986327,4.028320
0.053101,0.659302,0.786865,-1.708984,-3.784179,1.647949
0.048462,0.713135,0.896240,11.352538,-5.065917,9.460449
0.026123,0.743286,0.903931,7.873535,-3.601074,7.202148
0.015015,0.890991,1.133789,1.953125,1.342773,3.601074
0.023315,0.990234,1.215088,-6.042480,5.310058,-4.943848
0.025024,0.854492,1.026733,-2.868652,5.065917,-2.807617
0.047729,0.672607,0.822021,1.525879,1.953125,-2.380371
0.046631,0.612915,0.761719,1.464844,3.601074,1.159668
0.027466,0.598267,0.788574,1.647949,2.868652,0.427246
0.001709,0.619019,0.823730,-8.850098,6.042480,-3.356933
0.037231,0.590576,0.723755,-7.141113,0.793457,-4.699707
0.051392,0.585083,0.665283,-16.296387,6.652832,-7.507324
0.057495,0.548096,0.590088,-17.272949,6.530761,-7.202148
0.053467,0.394287,0.411865,-12.573241,1.159668,-2.929687
0.096680,0.657227,0.670532,4.760742,5.432128,-8.728027
0.151245,0.847656,0.827271,-19.165039,11.047362,-11.413573
0.101318,0.478027,0.436523,13.916015,-5.798339,10.803222
0.079224,0.439697,0.381348,18.920898,-10.620116,10.620116
0.107910,0.479858,0.567017,22.033689,-6.286621,3.845215
0.125488,0.600830,0.674805,12.817382,-7.263183,5.676269
0.056763,0.627563,0.818481,20.629881,-13.610839,10.375976
0.027710,0.637573,0.837891,12.084960,-15.441894,7.202148
-0.010742,0.629150,0.886230,9.765625,-9.765625,6.469726
-0.024902,0.658569,0.958496,0.244141,-4.150391,5.432128
-0.049072,0.834473,1.173828,-3.417969,-1.647949,-2.136230
-0.033936,0.933472,1.249634,-15.258788,7.507324,-5.065917
-0.008545,0.755493,0.995728,-5.249023,5.126953,-0.854492
0.006836,0.620850,0.842651,-7.873535,7.568359,-5.615234
0.031006,0.577881,0.777710,-11.962890,10.925292,-6.652832
0.034058,0.603149,0.776123,-5.920410,3.295898,-4.638672
0.034058,0.630249,0.745483,-14.587401,6.225585,-7.141113
0.049316,0.619141,0.716309,-5.920410,2.624511,-8.056641
0.084351,0.589478,0.635132,-20.446775,9.033203,-11.962890
0.086304,0.493042,0.511841,-14.465331,4.211426,-6.469726
0.050293,0.419678,0.403931,-4.211426,1.770019,4.516602
0.140625,0.753174,0.795166,6.774902,0.305176,-7.202148
0.146606,0.703491,0.736572,-13.305663,5.981445,-5.371093
0.146118,0.475464,0.497681,0.915527,-5.676269,1.159668
0.073364,0.406860,0.472900,2.563476,-2.807617,13.854980
0.038330,0.470703,0.525879,11.535644,-4.028320,5.798339
0.000000,0.615234,0.630249,13.793944,-6.042480,2.258301
-0.019165,0.663574,0.750366,9.094238,-9.765625,-2.258301
0.012329,0.695801,0.808716,3.906250,-4.882812,2.319336
-0.000244,0.677490,0.803467,15.930175,-6.286621,6.652832
-0.032104,0.745117,1.020752,15.869140,-3.601074,10.192870
-0.001953,0.903931,1.213989,-3.540039,1.953125,-6.408691
0.047241,0.888184,1.195190,-8.850098,9.033203,-4.150391
0.042603,0.742065,0.985229,-7.324218,3.967285,-1.281738
0.031250,0.631470,0.803589,-10.742187,8.178711,-0.610352
0.034546,0.599121,0.747192,-10.253905,8.728027,-0.915527
0.037842,0.629272,0.776123,-5.493164,2.136230,-3.417969
0.059570,0.665283,0.753052,-18.432617,6.652832,-8.056641
0.053223,0.640503,0.692383,-13.549804,3.723144,-6.774902
0.073364,0.581909,0.603638,-19.226074,7.568359,-12.512206
0.079468,0.470093,0.407837,-26.367186,7.446289,-9.704590
0.107666,0.507935,0.412964,9.521484,-8.605957,1.403808
0.181641,0.831543,0.744385,14.343261,-2.746582,2.868652
0.123535,0.673340,0.627686,-9.948730,4.882812,-3.784179
0.111694,0.593262,0.509521,2.563476,-6.164550,2.563476
0.115601,0.361938,0.411987,18.127441,-7.141113,14.831542
0.074097,0.571167,0.561035,15.197753,-9.399414,6.042480
0.053711,0.590576,0.653442,28.808592,-16.540527,10.620116
0.020508,0.609985,0.759399,18.066406,-10.009766,8.056641
0.020508,0.637817,0.819946,16.845703,-10.864257,7.019042
-0.040894,0.662842,0.945801,10.314940,-9.033203,12.939452
-0.073853,0.666016,0.984253,-1.464844,-5.737304,4.821777
-0.057617,0.887817,1.141846,-14.709472,-0.915527,-6.164550
0.014893,0.891724,1.175293,-3.784179,1.037598,-5.798339
-0.003052,0.734497,1.050537,0.549316,3.967285,0.610352
-0.030884,0.615723,0.780396,-0.549316,5.859375,2.746582
-0.016724,0.609131,0.806641,-12.145995,8.117676,-7.873535
0.026611,0.587036,0.763428,-12.084960,5.432128,-11.962890
0.036987,0.661377,0.762939,-16.662598,4.516602,-12.634276
0.043579,0.671631,0.721191,-10.009766,2.319336,-9.094238
0.070190,0.599487,0.632202,-21.728514,9.521484,-10.742187
0.068848,0.475098,0.519409,-23.437498,11.291503,-13.366698
0.084229,0.391113,0.328247,-10.192870,2.502441,-2.807617
0.201172,0.844360,0.741577,8.728027,5.493164,-3.173828
0.135132,0.796509,0.686035,-8.850098,3.356933,0.488281
0.094971,0.483643,0.416016,17.272949,-16.845703,10.986327
0.061523,0.463501,0.415039,12.634276,-9.704590,9.948730
0.079590,0.595825,0.555176,4.150391,-0.610352,2.624511
0.098755,0.612061,0.702148,19.165039,-6.042480,11.901855
0.057251,0.628662,0.730835,15.930175,-7.629394,14.343261
0.011841,0.662964,0.866211,17.517090,-7.995605,13.854980
0.009888,0.635376,0.863525,9.704590,-3.845215,9.094238
-0.035645,0.703613,0.985840,5.615234,-3.662109,16.723633
-0.093750,0.799194,1.136719,-4.272461,1.525879,-1.159668
-0.031982,0.886841,1.161499,-13.732909,5.493164,-6.164550
-0.049316,0.752319,0.967651,-2.624511,3.906250,-2.624511
-0.018677,0.638062,0.841431,-8.911133,7.873535,-7.385253
0.020996,0.584229,0.721802,-10.864257,6.286621,-8.911133
0.030029,0.632080,0.750610,-6.713867,5.493164,-11.596679
0.043945,0.639404,0.759399,-0.915527,5.920410,-7.080078
0.075562,0.640503,0.741577,-4.882812,6.103515,-6.286621
0.098633,0.644409,0.706421,-4.760742,7.202148,-3.479004
0.100098,0.564453,0.676025,-13.610839,8.544922,-3.967285
0.119751,0.532715,0.623169,-18.615723,8.605957,-5.920410
0.110474,0.413940,0.437378,-4.516602,-3.479004,2.014160
0.109253,0.681030,0.699585,13.488769,-0.366211,1.525879
0.089233,0.719604,0.735352,-23.620604,11.413573,-9.338379
0.074341,0.412231,0.371826,3.479004,-5.859375,0.122070
0.100342,0.350952,0.411499,16.174316,-14.160155,11.230468
0.055786,0.565063,0.621216,22.094725,-0.732422,9.216309
0.062134,0.703857,0.759033,-0.061035,6.103515,0.488281
0.036865,0.737427,0.772949,4.638672,-5.187988,2.868652
0.010254,0.698364,0.916138,16.357422,-7.141113,14.343261
-0.020996,0.650146,0.881836,16.479492,-7.568359,13.427733
-0.052368,0.834961,1.196167,-9.155273,0.610352,-0.854492
-0.010254,0.937988,1.275391,-8.239746,2.197266,-6.530761
0.010986,0.805786,1.063354,-6.042480,3.479004,-2.197266
0.013794,0.631104,0.834229,-4.028320,4.638672,-0.244141
0.036987,0.575806,0.703003,-19.958496,9.643555,-7.812500
0.057007,0.612793,0.739868,-10.559081,7.568359,-6.347656
0.072754,0.656128,0.751831,-12.695312,7.934570,-8.666992
0.069946,0.683960,0.750610,-9.582520,6.042480,-4.699707
0.079590,0.642944,0.682251,-6.225585,6.347656,-2.868652
0.099487,0.499512,0.526001,-16.723633,10.498046,-5.798339
0.068359,0.373535,0.311768,-15.014647,6.469726,-2.868652
0.129761,0.723267,0.697144,31.066893,-0.305176,5.554199
0.132935,0.738281,0.763306,-10.864257,6.896972,-1.464844
0.067383,0.435791,0.434692,6.774902,-7.568359,3.479004
0.053223,0.380859,0.473999,15.869140,-10.864257,9.582520
0.074463,0.525391,0.490479,18.310547,-2.502441,-1.586914
0.079956,0.621704,0.675415,-5.065917,2.624511,1.403808
0.032471,0.690308,0.769653,18.371582,-11.596679,7.263183
0.021851,0.652832,0.917969,16.967773,-9.155273,7.141113
-0.007202,0.683472,0.938477,3.967285,-2.563476,5.859375
-0.016968,0.744019,1.037231,6.408691,-6.652832,6.042480
-0.003418,0.920654,1.283325,-13.305663,2.624511,-3.967285
0.016235,0.866943,1.187256,-6.225585,3.417969,-4.333496
0.001709,0.650757,0.917847,0.793457,-0.915527,0.915527
-0.007202,0.568970,0.784302,-4.882812,4.821777,-2.441406
0.018433,0.576782,0.773193,-7.873535,7.324218,-5.432128
0.030640,0.608276,0.788452,-3.784179,2.502441,-6.042480
0.042114,0.615601,0.788818,-12.573241,6.469726,-5.737304
0.063721,0.607788,0.715698,-6.774902,4.211426,-6.164550
0.062866,0.550903,0.670776,-15.441894,9.277344,-7.263183
0.068481,0.456787,0.478638,-18.188477,4.577637,-9.826660
0.086548,0.412964,0.447632,-4.394531,5.126953,0.305176
0.160400,0.836060,0.804810,-7.690429,7.568359,-14.648437
0.118896,0.579346,0.590576,8.239746,-3.784179,5.249023
0.069214,0.379517,0.386353,25.512693,-19.348145,14.465331
0.050171,0.435059,0.498169,37.048340,-10.070800,17.028809
0.032959,0.558594,0.711792,13.244628,-4.455566,7.568359
0.021484,0.525146,0.780640,14.831542,-14.343261,0.488281
0.031128,0.588013,0.906372,7.629394,-9.399414,6.286621
0.006836,0.620728,0.966187,9.155273,-4.394531,9.277344
-0.032227,0.628296,0.989380,8.605957,-3.967285,12.390136
-0.066284,0.820435,1.286133,-9.094238,0.854492,-1.220703
-0.031494,0.877197,1.280273,-11.413573,9.521484,-3.723144
-0.000244,0.658691,0.995605,4.333496,0.671387,2.868652
-0.040894,0.524780,0.820923,0.610352,4.577637,1.708984
-0.029419,0.529541,0.775146,0.488281,5.981445,-2.502441
0.009766,0.548340,0.805664,1.953125,0.671387,-6.042480
0.028564,0.530640,0.817627,-2.746582,1.770019,-4.943848
0.034668,0.530151,0.782104,-2.746582,4.760742,-3.723144
0.028931,0.558228,0.801636,-1.281738,5.126953,0.671387
0.031006,0.584351,0.819946,-10.314940,8.483887,-3.479004
0.046143,0.555908,0.725952,-16.174316,8.422852,-5.065917
0.060669,0.503418,0.591797,-24.536131,7.751464,-9.094238
0.086426,0.494629,0.542969,-20.812986,7.629394,-9.643555
0.124634,0.636475,0.659546,-2.746582,6.225585,1.281738
0.127563,0.740356,0.809204,2.685547,2.868652,5.432128
0.107178,0.529785,0.645020,10.925292,-16.052246,6.225585
0.037598,0.418579,0.444946,-6.652832,0.915527,10.253905
0.043823,0.406128,0.501709,7.934570,-5.554199,5.004883
0.091675,0.556396,0.558350,2.990722,-5.981445,-0.610352
0.026733,0.649780,0.744995,21.362303,-13.977050,11.901855
0.001343,0.662109,0.856201,19.348145,-9.338379,10.803222
-0.035889,0.642212,0.968506,7.812500,-4.760742,10.131835
-0.034180,0.655396,0.937012,5.310058,1.281738,4.150391
-0.050415,0.715454,1.083740,6.225585,-0.732422,6.286621
-0.078735,0.853760,1.211304,-1.281738,3.173828,-0.488281
-0.052124,0.723999,1.066650,-10.253905,11.413573,-6.408691
-0.031738,0.617187,0.914062,-12.695312,5.065917,-10.009766
0.017700,0.545410,0.797974,-10.681151,6.408691,-8.789063
0.040894,0.598022,0.756226,-11.535644,14.099120,-4.272461
0.056519,0.584351,0.751587,-6.530761,7.019042,-6.164550
0.065552,0.627075,0.792358,-4.455566,2.990722,-2.380371
0.062866,0.637207,0.785034,-10.131835,6.896972,1.159668
0.063110,0.653687,0.752808,-20.019531,11.169433,-5.126953
0.082642,0.634644,0.673340,-20.874022,7.812500,-7.263183
0.111694,0.593262,0.552490,-18.188477,8.056641,-6.530761
0.057861,0.447021,0.409058,-3.112793,3.295898,7.385253
0.104614,0.629150,0.615723,17.089844,6.530761,-2.319336
0.127197,0.800903,0.782104,-25.390623,11.657714,-6.286621
0.112305,0.661865,0.617065,9.460449,-5.554199,-1.892090
0.119141,0.736572,0.691528,0.549316,2.258301,0.000000
0.141724,0.756226,0.682861,17.944336,-3.356933,2.319336
0.127075,0.671387,0.675293,3.417969,-4.333496,-0.183105
0.134644,0.703735,0.708130,3.784179,-14.038085,-4.211426
0.134766,0.717407,0.694702,-16.174316,2.380371,-8.300781
0.132690,0.669556,0.694580,-0.915527,0.915527,-0.549316
0.145020,0.684814,0.729736,6.408691,-1.892090,5.371093
0.119629,0.677002,0.702759,-0.183105,2.197266,4.943848
