Accel_X,Accel_Y,Accel_Z,Gyro_X,Gyro_Y,Gyro_Z
-0.015625,0.717773,0.713745,3.723144,0.915527,5.859375
0.010376,0.714600,0.674683,-4.943848,-0.671387,4.699707
0.016479,0.701050,0.682129,-10.314940,2.197266,-2.929687
0.017334,0.690552,0.687012,-5.187988,1.953125,0.549316
0.006226,0.693726,0.715698,-8.300781,4.333496,1.647949
0.012939,0.742676,0.697632,-5.798339,3.723144,-2.990722
0.023926,0.715454,0.664429,4.760742,-9.704590,-9.277344
0.000610,0.728638,0.688354,-0.183105,-5.371093,-3.784179
-0.001709,0.758057,0.690430,0.793457,-4.699707,-3.295898
-0.010132,0.712769,0.673706,9.582520,-6.408691,1.770019
-0.013672,0.701782,0.675781,11.413573,0.183105,1.770019
-0.023193,0.710205,0.704712,7.934570,-1.647949,3.723144
-0.000854,0.648193,0.663086,8.728027,7.324218,7.568359
-0.022339,0.647339,0.695312,-6.774902,12.634276,11.352538
-0.153198,0.750244,0.664795,-4.882812,8.056641,19.165039
-0.015991,0.667480,0.888428,12.512206,0.915527,7.324218
0.156982,0.619751,0.802734,15.808105,-12.939452,-1.586914
-0.072510,0.725830,0.838989,-37.719727,1.831055,6.408691
-0.113892,0.631836,0.698608,4.638672,-2.502441,-10.620116
-0.073730,0.636475,0.693237,-10.131835,-2.380371,-4.882812
-0.115356,0.664917,0.704468,2.746582,0.488281,-3.234863
-0.067383,0.692383,0.730347,-8.422852,7.385253,1.281738
-0.030029,0.660400,0.671753,1.220703,1.037598,-0.915527
-0.019775,0.717773,0.717163,2.075195,4.089355,0.976562
-0.032349,0.704956,0.659790,-5.737304,8.422852,1.525879
-0.049805,0.707886,0.715210,-4.089355,2.990722,-3.173828
-0.032227,0.693359,0.707642,10.314940,-4.821777,-2.563476
-0.012939,0.636963,0.682373,8.666992,-4.577637,-1.953125
0.009644,0.561646,0.618042,7.019042,0.427246,-1.037598
-0.017456,0.457275,0.492310,3.112793,6.713867,10.009766
-0.048828,0.516235,0.560425,4.943848,4.211426,1.037598
-0.047607,0.587646,0.670776,5.554199,1.770019,4.516602
-0.030640,0.582275,0.741821,4.394531,-2.258301,5.676269
-0.062378,0.614624,0.719116,-12.268065,3.967285,5.004883
-0.055908,0.699707,0.819824,-7.934570,-0.793457,5.065917
-0.031738,0.775391,0.830078,-14.587401,2.014160,3.479004
-0.041260,0.756836,0.795654,4.699707,-16.174316,4.272461
-0.108765,0.786987,0.894653,2.563476,-2.258301,6.591796
-0.067505,0.761719,0.917969,11.657714,-7.751464,15.258788
-0.113281,0.957886,1.080933,-20.385740,10.986327,2.380371
-0.199951,0.981323,0.946533,-18.371582,22.766111,-4.089355
-0.081543,0.817627,0.642700,-12.695312,12.207030,-11.474608
-0.045898,0.704956,0.617310,-12.084960,7.385253,-8.178711
0.020020,0.690674,0.752808,8.483887,-18.310547,-6.042480
-0.038208,0.667236,0.673584,15.808105,-11.230468,-5.432128
-0.031982,0.628296,0.679443,4.760742,-1.098633,-7.690429
-0.041016,0.637939,0.672974,0.183105,13.122558,-1.708984
-0.035156,0.627197,0.604370,6.652832,1.831055,-4.028320
-0.077637,0.545898,0.571167,1.586914,4.638672,2.319336
-0.046875,0.483887,0.567749,8.789063,-8.178711,-1.953125
-0.031250,0.562622,0.638550,6.347656,-3.112793,-2.563476
-0.021118,0.615601,0.710205,-5.126953,-0.366211,-4.150391
-0.014526,0.637817,0.734497,-5.004883,-4.638672,-7.873535
-0.006714,0.669067,0.754028,1.892090,-5.126953,-3.479004
-0.007690,0.675171,0.764404,-6.347656,-3.784179,-1.037598
-0.018921,0.637573,0.745117,-2.136230,-7.568359,-1.403808
-0.052002,0.666260,0.735474,5.615234,-10.192870,-1.403808
-0.052002,0.606079,0.695190,0.122070,-2.075195,3.234863
-0.019531,0.592651,0.613525,-9.216309,6.164550,-1.098633
0.009888,0.549438,0.567993,14.404296,-0.183105,7.934570
-0.033691,0.473999,0.619995,5.432128,18.188477,13.305663
-0.021606,0.424683,0.699951,-0.305176,11.352538,9.216309
-0.057373,0.559326,0.727661,4.760742,1.281738,1.037598
-0.005493,0.577148,0.847046,-3.540039,11.230468,9.948730
-0.017944,0.598389,0.822632,0.732422,7.385253,3.417969
-0.031982,0.654907,0.744629,-7.568359,0.000000,1.037598
-0.025391,0.771362,0.937012,-3.662109,-3.112793,4.089355
-0.036499,0.638672,0.847534,0.549316,-6.835937,1.586914
-0.008789,0.704834,0.858765,-2.929687,2.136230,8.239746
-0.041016,0.778687,0.881714,7.934570,7.141113,1.647949
-0.016724,0.785034,0.952148,1.525879,6.469726,2.319336
-0.034912,0.889771,0.912476,-7.568359,-2.014160,-1.586914
-0.088135,0.909058,0.944580,-17.089844,4.150391,0.000000
-0.112427,0.768799,0.763672,0.305176,17.944336,-12.634276
0.053467,0.639404,0.720703,-11.535644,2.868652,-4.028320
0.008057,0.712891,0.729858,-13.610839,-13.732909,-0.610352
-0.017822,0.700195,0.776978,2.929687,-14.709472,3.234863
-0.054810,0.705200,0.783691,4.943848,-13.244628,0.793457
-0.090454,0.689697,0.783691,-13.854980,-7.202148,-4.211426
0.028442,0.667847,0.757812,13.793944,-3.845215,-3.845215
-0.002441,0.612427,0.658081,13.183593,-7.324218,-0.854492
0.000244,0.462646,0.561768,7.995605,0.305176,2.319336
0.009766,0.362915,0.516724,14.404296,-6.896972,1.708984
-0.026001,0.589844,0.658325,6.408691,-0.183105,-11.108397
-0.012207,0.714355,0.747925,-19.348145,8.361816,-6.347656
0.008545,0.655151,0.686890,1.525879,-0.732422,-2.563476
-0.003662,0.726562,0.754639,9.094238,-0.732422,0.122070
-0.022827,0.613770,0.683960,-2.441406,1.464844,9.521484
-0.024780,0.708008,0.796143,-12.084960,4.760742,-1.098633
-0.028198,0.636108,0.731567,-4.455566,-7.934570,6.713867
-0.053955,0.662964,0.711548,-0.732422,-3.662109,-5.615234
-0.015503,0.691162,0.729370,-3.479004,-1.831055,-4.089355
-0.006348,0.685303,0.744995,7.141113,-4.821777,-1.892090
-0.017578,0.627930,0.719849,3.662109,-2.136230,-1.342773
-0.035156,0.640259,0.711060,-11.047362,-5.493164,-3.845215
-0.035889,0.735718,0.779419,-8.972168,1.892090,-7.263183
-0.031494,0.666138,0.688232,-3.173828,-5.676269,4.333496
-0.025879,0.676270,0.694214,-3.906250,-1.586914,-6.469726
-0.022827,0.690796,0.733643,1.953125,-5.249023,-2.319336
-0.016968,0.702026,0.694946,0.793457,-2.136230,-2.319336
-0.026611,0.714355,0.710205,0.122070,1.708984,-0.610352
-0.026489,0.596191,0.561279,-2.258301,-2.014160,6.408691
-0.019043,0.465942,0.438965,-6.713867,0.000000,5.432128
-0.006714,0.494019,0.505981,-2.136230,2.624511,7.385253
-0.040161,0.593262,0.666016,8.605957,12.817382,12.329101
-0.031616,0.625488,0.720703,-10.925292,30.517576,16.113281
-0.028564,0.744507,0.622681,-14.709472,15.747069,2.258301
0.000854,0.741821,0.655640,-0.305176,2.197266,7.812500
-0.016846,0.711792,0.739136,13.916015,8.361816,8.361816
-0.023804,0.771851,0.801025,-1.770019,10.620116,8.422852
-0.063232,0.815552,0.827515,0.183105,1.708984,5.493164
-0.041016,0.842896,0.873535,-3.906250,-14.953612,-1.159668
0.007080,0.990967,0.982300,-13.610839,9.948730,1.770019
0.015137,0.959839,0.909302,-1.892090,14.648437,-1.525879
0.052734,0.762817,0.769775,-1.831055,22.705076,2.624511
0.020264,0.712158,0.747559,8.911133,17.822266,12.390136
-0.004517,0.695068,0.703613,1.831055,9.521484,1.281738
0.079102,0.726318,0.774536,-7.385253,0.976562,-5.554199
0.004761,0.705444,0.743408,2.746582,-7.263183,-6.774902
-0.030518,0.729736,0.717407,-9.948730,-4.028320,-10.681151
0.014893,0.721680,0.756592,0.915527,-8.789063,-12.512206
0.040649,0.627319,0.697876,16.357422,-15.380858,-1.586914
0.005127,0.562744,0.573120,8.300781,-12.512206,-6.042480
-0.012695,0.532104,0.524902,6.835937,-24.169920,0.305176
-0.100464,0.552002,0.603882,26.000975,-55.908199,-6.591796
-0.126831,0.557861,0.597168,3.845215,-4.821777,-2.929687
-0.135620,0.639038,0.722168,-5.859375,4.211426,-9.277344
-0.096069,0.654297,0.733643,-1.464844,0.061035,-5.737304
-0.080566,0.668579,0.739136,3.601074,-0.732422,-7.873535
-0.050171,0.698853,0.772583,3.540039,-1.220703,-4.028320
-0.056274,0.606323,0.703613,1.220703,-9.887695,-2.929687
-0.071289,0.705566,0.764526,-15.014647,1.831055,-6.042480
-0.062012,0.666992,0.738159,0.183105,-1.098633,-0.183105
-0.080933,0.646973,0.685425,6.164550,-3.173828,-1.831055
-0.073120,0.571411,0.613892,-0.122070,0.061035,3.540039
-0.044922,0.530518,0.566895,-1.647949,7.751464,3.540039
-0.023682,0.465332,0.577271,3.601074,11.352538,21.667479
-0.079712,0.514160,0.660034,13.732909,13.793944,12.023925
-0.047729,0.650879,0.721313,-12.634276,22.155760,10.253905
-0.012695,0.604492,0.787109,-6.652832,17.639160,9.277344
-0.022827,0.626221,0.915405,-0.366211,19.531250,6.958007
-0.054687,0.741333,0.930298,1.708984,2.929687,8.300781
-0.015015,0.743042,0.922119,17.761230,-24.963377,4.638672
-0.106812,0.735229,0.802124,-9.155273,2.929687,10.070800
-0.115845,0.888550,0.899780,-6.225585,20.019531,-0.732422
-0.063721,0.980957,1.103516,-3.479004,27.709959,-0.366211
0.053223,0.799072,0.918945,-15.197753,22.583006,-2.990722
-0.035522,0.729858,0.737305,1.586914,3.356933,-5.676269
0.014893,0.665405,0.752441,4.211426,7.568359,5.249023
0.034424,0.690308,0.784668,-5.676269,-2.807617,-5.004883
0.029175,0.676514,0.753906,-1.281738,-5.798339,0.732422
-0.022461,0.692017,0.705688,-12.145995,0.671387,-2.990722
-0.012207,0.686646,0.663086,-10.986327,-2.075195,-8.911133
0.018433,0.723022,0.671631,-0.183105,-15.441894,-13.610839
0.019897,0.630493,0.684937,10.070800,-19.653320,-1.892090
-0.030884,0.577393,0.599731,-4.089355,-8.605957,-5.737304
0.003906,0.567627,0.571411,4.211426,-11.596679,-5.310058
-0.010986,0.542603,0.562988,15.808105,-25.024412,-2.624511
-0.039795,0.625000,0.629150,6.042480,-5.981445,-10.070800
-0.029175,0.655396,0.727783,-2.685547,2.136230,-7.995605
0.005615,0.680420,0.708374,10.314940,-7.019042,-6.652832
-0.065308,0.696167,0.735718,-3.662109,-2.502441,-4.333496
-0.036377,0.630005,0.733398,3.295898,0.549316,0.976562
-0.045044,0.645264,0.718750,-2.441406,-1.953125,-2.685547
-0.031494,0.730469,0.732910,-13.671874,7.263183,-1.586914
-0.033325,0.709839,0.710937,10.253905,-1.831055,-1.708984
-0.045288,0.660522,0.632446,-0.061035,-0.488281,-0.610352
-0.030518,0.544556,0.634033,1.464844,2.197266,2.014160
-0.049561,0.647949,0.661011,-2.868652,4.211426,-0.122070
-0.023804,0.492065,0.583740,9.704590,-1.220703,5.065917
-0.025879,0.578735,0.579468,3.417969,1.525879,1.770019
-0.036377,0.647583,0.692993,-3.173828,13.061522,10.803222
-0.008301,0.587646,0.645874,11.779784,2.807617,-0.427246
-0.060547,0.601318,0.697876,1.770019,-1.953125,-3.906250
0.000366,0.677368,0.815674,0.244141,1.342773,2.258301
-0.037354,0.770752,0.872559,1.403808,1.159668,23.437498
-0.117310,0.691162,0.847168,-4.821777,13.793944,17.761230
-0.070068,0.717651,0.782593,-0.549316,-4.455566,2.441406
-0.048828,0.822266,0.939575,-7.019042,-3.845215,-1.159668
-0.127930,0.892700,1.047485,-2.258301,9.460449,1.831055
-0.081177,0.870239,0.951172,-42.968746,26.611326,-6.347656
-0.022339,0.743896,0.772461,-16.113281,22.460936,-5.920410
-0.003174,0.733521,0.578857,2.807617,4.699707,6.713867
0.020508,0.751343,0.728394,-14.709472,10.681151,13.183593
0.103394,0.729004,0.822876,3.234863,2.014160,8.239746
-0.034302,0.681396,0.631592,-11.413573,0.549316,5.310058
-0.023315,0.739380,0.682251,-1.403808,-3.234863,-0.854492
-0.059692,0.755737,0.705200,-5.310058,-7.385253,-5.798339
0.003174,0.698364,0.635010,6.652832,-6.225585,-9.948730
-0.033936,0.598877,0.541626,14.526366,-8.972168,-7.629394
-0.092896,0.468628,0.404907,-0.122070,-6.469726,-2.929687
-0.123413,0.544189,0.489868,-10.803222,-9.460449,-15.502929
-0.036743,0.812378,0.687378,-0.488281,-14.892577,-18.371582
-0.003418,0.690063,0.655151,5.065917,-14.038085,-10.009766
-0.027100,0.725708,0.691040,8.972168,-7.080078,-10.559081
-0.025146,0.672241,0.671753,22.460936,-17.272949,-4.638672
-0.026978,0.694824,0.736206,2.441406,-4.089355,-7.080078
-0.052612,0.657349,0.707031,-18.798828,19.470215,1.281738
-0.005859,0.759521,0.749878,-3.295898,7.873535,-7.995605
0.020386,0.676147,0.668335,5.371093,-5.432128,-1.220703
-0.000366,0.636597,0.626343,4.699707,-2.197266,-1.281738
-0.007080,0.593506,0.592651,0.488281,-1.647949,3.173828
-0.006348,0.506348,0.498169,15.197753,-4.455566,7.141113
-0.011108,0.496460,0.555908,19.348145,-12.207030,14.282226
-0.036377,0.567505,0.663574,-33.325195,14.038085,15.197753
-0.107422,0.710205,0.745117,-20.141600,123.596184,24.353025
0.148437,0.679443,0.665405,8.544922,61.462399,-4.272461
0.155273,0.707642,0.743164,-10.131835,7.934570,-1.586914
0.172485,0.753784,0.811035,8.911133,-9.033203,-2.014160
0.114136,0.688354,0.751465,9.460449,4.882812,4.882812
0.189087,0.751099,0.877930,-0.305176,-5.249023,18.920898
0.126221,0.861450,0.978760,-5.676269,-2.380371,-2.258301
0.092285,0.991577,0.955078,-5.371093,0.427246,-2.746582
0.094727,0.744019,0.821777,-5.249023,4.821777,4.028320
0.160889,0.711548,0.710449,4.028320,11.352538,-9.948730
0.151978,0.672607,0.736938,2.441406,-2.502441,-14.709472
0.129883,0.670532,0.725586,-7.568359,9.643555,4.821777
0.141968,0.665161,0.843994,-1.342773,6.225585,9.643555
0.163940,0.660400,0.862061,7.507324,4.516602,1.098633
0.092285,0.683838,0.762573,-4.882812,7.141113,-6.713867
0.099365,0.672974,0.692383,-10.314940,-6.713867,-14.221190
0.069580,0.703979,0.639282,-16.540527,-5.859375,-5.493164
0.109863,0.634399,0.687256,-4.089355,-8.239746,-8.850098
0.098511,0.502930,0.504395,11.596679,-18.066406,-7.690429
0.072388,0.399048,0.429077,2.807617,-26.855467,-1.342773
0.145142,0.691772,0.628662,-41.442867,14.221190,-13.122558
0.135132,0.840698,0.561768,-23.803709,2.746582,-25.329588
0.129272,0.859253,0.655884,18.432617,5.432128,1.708984
0.035278,0.739624,0.550903,13.488769,-3.723144,-1.098633
-0.021851,0.826294,0.525146,-10.253905,-1.770019,5.249023
-0.038086,0.787598,0.559082,-7.385253,-5.493164,5.554199
0.030640,0.885986,0.716064,-14.038085,12.451171,6.286621
